## w(eV)         sigma(Sm^-1)
    0.01         1.76974e+06
    0.03         1.77028e+06
    0.05         1.77133e+06
    0.07          1.7729e+06
    0.09         1.77497e+06
    0.11         1.77752e+06
    0.13         1.78053e+06
    0.15           1.784e+06
    0.17          1.7879e+06
    0.19         1.79224e+06
    0.21         1.79701e+06
    0.23         1.80222e+06
    0.25         1.80785e+06
    0.27         1.81391e+06
    0.29         1.82038e+06
    0.31         1.82724e+06
    0.33         1.83442e+06
    0.35         1.84185e+06
    0.37         1.84944e+06
    0.39         1.85703e+06
    0.41         1.86447e+06
    0.43         1.87154e+06
    0.45         1.87801e+06
    0.47         1.88363e+06
    0.49          1.8881e+06
    0.51         1.89116e+06
    0.53          1.8925e+06
    0.55         1.89185e+06
    0.57         1.88896e+06
    0.59         1.88363e+06
    0.61         1.87566e+06
    0.63         1.86495e+06
    0.65         1.85145e+06
    0.67         1.83515e+06
    0.69         1.81611e+06
    0.71         1.79447e+06
    0.73         1.77038e+06
    0.75         1.74408e+06
    0.77         1.71579e+06
    0.79         1.68581e+06
    0.81         1.65439e+06
    0.83         1.62184e+06
    0.85         1.58842e+06
    0.87          1.5544e+06
    0.89         1.52003e+06
    0.91         1.48553e+06
    0.93          1.4511e+06
    0.95         1.41691e+06
    0.97         1.38311e+06
    0.99         1.34982e+06
    1.01         1.31714e+06
    1.03         1.28516e+06
    1.05         1.25393e+06
    1.07         1.22351e+06
    1.09         1.19392e+06
    1.11          1.1652e+06
    1.13         1.13736e+06
    1.15         1.11041e+06
    1.17         1.08436e+06
    1.19         1.05922e+06
    1.21           1.035e+06
    1.23          1.0117e+06
    1.25              989322
    1.27              967878
    1.29              947373
    1.31              927813
    1.33              909205
    1.35              891554
    1.37              874864
    1.39              859139
    1.41              844377
    1.43              830579
    1.45              817739
    1.47              805851
    1.49              794904
    1.51              784884
    1.53              775776
    1.55              767560
    1.57              760212
    1.59              753707
    1.61              748016
    1.63              743106
    1.65              738942
    1.67              735486
    1.69              732696
    1.71              730528
    1.73              728934
    1.75              727861
    1.77              727254
    1.79              727054
    1.81              727197
    1.83              727615
    1.85              728237
    1.87              728990
    1.89              729796
    1.91              730579
    1.93              731263
    1.95              731774
    1.97              732045
    1.99              732012
    2.01              731622
    2.03              730831
    2.05              729608
    2.07              727929
    2.09              725786
    2.11              723176
    2.13              720107
    2.15              716593
    2.17              712651
    2.19              708300
    2.21              703558
    2.23              698440
    2.25              692959
    2.27              687119
    2.29              680923
    2.31              674367
    2.33              667446
    2.35              660153
    2.37              652479
    2.39              644422
    2.41              635981
    2.43              627162
    2.45              617979
    2.47              608455
    2.49              598618
    2.51              588508
    2.53              578169
    2.55              567653
    2.57              557013
    2.59              546309
    2.61              535597
    2.63              524934
    2.65              514376
    2.67              503973
    2.69              493773
    2.71              483816
    2.73              474139
    2.75              464772
    2.77              455742
    2.79              447067
    2.81              438761
    2.83              430836
    2.85              423296
    2.87              416143
    2.89              409374
    2.91              402986
    2.93              396969
    2.95              391314
    2.97              386007
    2.99              381036
    3.01              376385
    3.03              372038
    3.05              367978
    3.07              364188
    3.09              360653
    3.11              357357
    3.13              354286
    3.15              351428
    3.17              348771
    3.19              346309
    3.21              344036
    3.23              341949
    3.25              340047
    3.27              338333
    3.29              336810
    3.31              335487
    3.33              334370
    3.35              333469
    3.37              332795
    3.39              332359
    3.41              332171
    3.43              332244
    3.45              332588
    3.47              333215
    3.49              334135
    3.51              335357
    3.53              336892
    3.55              338747
    3.57              340931
    3.59              343451
    3.61              346313
    3.63              349524
    3.65              353089
    3.67              357012
    3.69              361297
    3.71              365945
    3.73              370960
    3.75              376339
    3.77              382082
    3.79              388186
    3.81              394644
    3.83              401450
    3.85              408591
    3.87              416055
    3.89              423822
    3.91              431871
    3.93              440173
    3.95              448694
    3.97              457393
    3.99              466222
    4.01              475123
    4.03              484029
    4.05              492865
    4.07              501545
    4.09              509976
    4.11              518055
    4.13              525674
    4.15              532721
    4.17              539080
    4.19              544641
    4.21              549297
    4.23              552949
    4.25              555516
    4.27              556929
    4.29              557141
    4.31              556126
    4.33              553883
    4.35              550433
    4.37              545819
    4.39              540107
    4.41              533378
    4.43              525730
    4.45              517270
    4.47              508114
    4.49              498379
    4.51              488185
    4.53              477644
    4.55              466867
    4.57              455954
    4.59              444998
    4.61              434081
    4.63              423275
    4.65              412643
    4.67              402236
    4.69              392098
    4.71              382264
    4.73              372761
    4.75              363610
    4.77              354824
    4.79              346414
    4.81              338384
    4.83              330736
    4.85              323468
    4.87              316577
    4.89              310056
    4.91              303899
    4.93              298097
    4.95              292639
    4.97              287518
    4.99              282721
    5.01              278239
    5.03              274061
    5.05              270176
    5.07              266575
    5.09              263246
    5.11              260179
    5.13              257366
    5.15              254796
    5.17              252459
    5.19              250347
    5.21              248451
    5.23              246761
    5.25              245269
    5.27              243967
    5.29              242847
    5.31              241901
    5.33              241122
    5.35              240502
    5.37              240035
    5.39              239716
    5.41              239541
    5.43              239504
    5.45              239605
    5.47              239841
    5.49              240212
    5.51              240720
    5.53              241367
    5.55              242156
    5.57              243093
    5.59              244184
    5.61              245434
    5.63              246851
    5.65              248444
    5.67              250221
    5.69              252190
    5.71              254361
    5.73              256743
    5.75              259346
    5.77              262178
    5.79              265249
    5.81              268569
    5.83              272147
    5.85              275993
    5.87              280115
    5.89              284524
    5.91              289228
    5.93              294237
    5.95              299558
    5.97              305201
    5.99              311173
    6.01              317483
    6.03              324136
    6.05              331139
    6.07              338498
    6.09              346216
    6.11              354297
    6.13              362744
    6.15              371556
    6.17              380734
    6.19              390278
    6.21              400186
    6.23              410455
    6.25              421082
    6.27              432067
    6.29              443406
    6.31              455099
    6.33              467145
    6.35              479547
    6.37              492304
    6.39              505421
    6.41              518900
    6.43              532742
    6.45              546948
    6.47              561514
    6.49              576430
    6.51              591682
    6.53              607243
    6.55              623079
    6.57              639142
    6.59              655370
    6.61              671684
    6.63              687994
    6.65              704188
    6.67              720145
    6.69              735727
    6.71              750787
    6.73              765169
    6.75              778715
    6.77              791270
    6.79              802685
    6.81              812827
    6.83              821581
    6.85              828856
    6.87              834592
    6.89              838758
    6.91              841359
    6.93              842432
    6.95              842045
    6.97              840294
    6.99              837299
    7.01              833196
    7.03              828131
    7.05              822257
    7.07              815724
    7.09              808674
    7.11              801238
    7.13              793530
    7.15              785644
    7.17              777655
    7.19              769614
    7.21              761551
    7.23              753475
    7.25              745377
    7.27              737231
    7.29              728998
    7.31              720630
    7.33              712075
    7.35              703279
    7.37              694192
    7.39              684770
    7.41              674979
    7.43              664800
    7.45              654226
    7.47              643265
    7.49              631943
    7.51              620296
    7.53              608375
    7.55              596239
    7.57              583956
    7.59              571596
    7.61              559236
    7.63              546948
    7.65              534804
    7.67              522872
    7.69              511215
    7.71              499889
    7.73              488945
    7.75              478426
    7.77              468370
    7.79              458807
    7.81              449762
    7.83              441256
    7.85              433302
    7.87              425912
    7.89              419092
    7.91              412846
    7.93              407173
    7.95              402073
    7.97              397541
    7.99              393569
    8.01              390150
    8.03              387273
    8.05              384925
    8.07              383093
    8.09              381758
    8.11              380901
    8.13              380502
    8.15              380533
    8.17              380968
    8.19              381774
    8.21              382916
    8.23              384355
    8.25              386047
    8.27              387947
    8.29              390002
    8.31              392159
    8.33              394361
    8.35              396548
    8.37              398659
    8.39              400632
    8.41              402404
    8.43              403914
    8.45              405102
    8.47              405912
    8.49              406291
    8.51              406193
    8.53              405579
    8.55              404416
    8.57              402683
    8.59              400366
    8.61              397464
    8.63              393986
    8.65              389952
    8.67              385393
    8.69              380349
    8.71              374868
    8.73              369005
    8.75              362821
    8.77              356378
    8.79              349740
    8.81              342972
    8.83              336134
    8.85              329286
    8.87              322482
    8.89              315772
    8.91              309200
    8.93              302805
    8.95              296621
    8.97              290677
    8.99              284995
    9.01              279595
    9.03              274492
    9.05              269697
    9.07              265218
    9.09              261059
    9.11              257222
    9.13              253707
    9.15              250511
    9.17              247629
    9.19              245053
    9.21              242776
    9.23              240784
    9.25              239066
    9.27              237604
    9.29              236382
    9.31              235379
    9.33              234570
    9.35              233931
    9.37              233432
    9.39              233041
    9.41              232725
    9.43              232447
    9.45              232169
    9.47              231852
    9.49              231456
    9.51              230943
    9.53              230275
    9.55              229419
    9.57              228343
    9.59              227023
    9.61              225438
    9.63              223577
    9.65              221433
    9.67              219007
    9.69              216306
    9.71              213345
    9.73              210143
    9.75              206722
    9.77              203110
    9.79              199335
    9.81              195427
    9.83              191416
    9.85              187330
    9.87              183198
    9.89              179044
    9.91              174891
    9.93              170758
    9.95              166664
    9.97              162623
    9.99              158648
   10.01              154747
   10.03              150929
   10.05              147201
   10.07              143566
   10.09              140028
   10.11              136589
   10.13              133250
   10.15              130013
   10.17              126878
   10.19              123844
   10.21              120910
   10.23              118076
   10.25              115340
   10.27              112701
   10.29              110157
   10.31              107706
   10.33              105346
   10.35              103074
   10.37              100889
   10.39             98787.6
   10.41             96767.3
   10.43             94825.3
   10.45             92959.1
   10.47             91165.9
   10.49             89442.7
   10.51               87787
   10.53             86195.9
   10.55             84666.6
   10.57             83196.4
   10.59             81782.6
   10.61             80422.6
   10.63             79113.7
   10.65             77853.4
   10.67             76639.2
   10.69             75468.7
   10.71             74339.6
   10.73             73249.6
   10.75             72196.6
   10.77             71178.7
   10.79               70194
   10.81             69240.8
   10.83             68317.5
   10.85             67422.8
   10.87             66555.3
   10.89               65714
   10.91               64898
   10.93             64106.3
   10.95             63338.3
   10.97             62593.2
   10.99             61870.6
   11.01               61170
   11.03             60490.8
   11.05             59832.6
   11.07             59195.2
   11.09             58578.1
   11.11             57980.9
   11.13             57403.5
   11.15             56845.6
   11.17             56306.9
   11.19             55787.1
   11.21             55286.3
   11.23             54804.2
   11.25             54340.8
   11.27             53896.1
   11.29               53470
   11.31             53062.5
   11.33             52673.9
   11.35               52304
   11.37             51953.2
   11.39             51621.4
   11.41             51308.8
   11.43             51015.6
   11.45               50742
   11.47             50488.1
   11.49             50254.1
   11.51             50040.1
   11.53             49846.3
   11.55             49672.8
   11.57             49519.7
   11.59             49387.1
   11.61             49275.1
   11.63             49183.5
   11.65             49112.4
   11.67             49061.6
   11.69             49030.8
   11.71             49019.5
   11.73             49027.4
   11.75             49053.7
   11.77             49097.6
   11.79             49157.9
   11.81             49233.4
   11.83             49322.5
   11.85             49423.4
   11.87               49534
   11.89               49652
   11.91             49774.8
   11.93             49899.4
   11.95               50023
   11.97             50142.3
   11.99               50254
   12.01             50354.9
   12.03             50441.8
   12.05             50511.5
   12.07             50561.2
   12.09             50588.4
   12.11             50590.7
   12.13             50566.4
   12.15             50514.1
   12.17             50432.8
   12.19               50322
   12.21             50181.5
   12.23             50011.7
   12.25             49813.1
   12.27             49586.8
   12.29             49334.1
   12.31             49056.6
   12.33             48756.1
   12.35             48434.8
   12.37               48095
   12.39             47739.1
   12.41             47369.9
   12.43               46990
   12.45             46602.4
   12.47             46209.9
   12.49             45815.4
   12.51             45421.6
   12.53             45031.2
   12.55             44646.8
   12.57             44270.8
   12.59             43905.2
   12.61             43552.2
   12.63             43213.3
   12.65             42890.3
   12.67             42584.2
   12.69             42296.4
   12.71             42027.6
   12.73             41778.6
   12.75             41549.9
   12.77             41342.1
   12.79             41155.3
   12.81             40989.6
   12.83             40845.3
   12.85             40722.1
   12.87               40620
   12.89             40538.6
   12.91             40477.8
   12.93             40437.1
   12.95             40415.9
   12.97             40413.9
   12.99             40430.3
   13.01             40464.5
   13.03             40515.7
   13.05             40583.2
   13.07             40666.1
   13.09             40763.5
   13.11             40874.5
   13.13             40998.3
   13.15             41133.9
   13.17             41280.6
   13.19             41437.7
   13.21             41604.7
   13.23             41781.1
   13.25               41967
   13.27             42162.2
   13.29             42367.1
   13.31             42582.2
   13.33             42808.3
   13.35             43046.4
   13.37             43297.5
   13.39             43562.9
   13.41             43843.9
   13.43             44141.8
   13.45             44457.8
   13.47             44793.1
   13.49             45148.5
   13.51             45524.7
   13.53             45922.2
   13.55             46340.9
   13.57             46780.6
   13.59             47240.6
   13.61             47719.6
   13.63             48216.1
   13.65             48728.1
   13.67             49253.2
   13.69             49788.8
   13.71             50331.7
   13.73             50878.7
   13.75             51426.5
   13.77             51971.7
   13.79             52510.9
   13.81             53041.1
   13.83             53559.4
   13.85             54063.3
   13.87             54550.7
   13.89             55019.8
   13.91             55469.4
   13.93             55898.3
   13.95             56305.9
   13.97             56691.4
   13.99               57054
   14.01             57392.9
   14.03             57706.9
   14.05             57994.5
   14.07             58253.5
   14.09             58481.8
   14.11             58676.4
   14.13             58834.2
   14.15             58952.1
   14.17             59026.9
   14.19             59055.4
   14.21             59035.4
   14.23               58965
   14.25             58843.2
   14.27               58670
   14.29             58446.7
   14.31             58175.5
   14.33             57859.8
   14.35             57503.9
   14.37             57113.2
   14.39             56693.6
   14.41             56251.4
   14.43             55793.6
   14.45             55326.8
   14.47             54857.9
   14.49             54393.4
   14.51             53939.4
   14.53             53501.9
   14.55             53086.1
   14.57             52696.6
   14.59             52337.9
   14.61             52013.7
   14.63             51727.2
   14.65             51481.3
   14.67             51278.5
   14.69             51120.9
   14.71             51010.4
   14.73             50948.7
   14.75             50937.2
   14.77             50977.2
   14.79               51070
   14.81             51216.6
   14.83             51418.3
   14.85             51676.2
   14.87             51991.4
   14.89             52365.1
   14.91             52798.6
   14.93             53293.2
   14.95             53850.3
   14.97             54471.3
   14.99             55157.7
   15.01             55911.3
   15.03             56733.6
   15.05             57626.3
   15.07             58591.2
   15.09             59629.8
   15.11               60744
   15.13             61935.2
   15.15             63204.7
   15.17             64553.8
   15.19             65983.1
   15.21             67493.3
   15.23               69084
   15.25             70754.6
   15.27             72503.6
   15.29             74328.4
   15.31             76225.5
   15.33             78189.9
   15.35             80215.4
   15.37             82293.8
   15.39             84415.5
   15.41             86568.5
   15.43               88739
   15.45               90911
   15.47             93066.2
   15.49             95184.6
   15.51             97244.1
   15.53             99221.2
   15.55              101091
   15.57              102829
   15.59              104410
   15.61              105810
   15.63              107006
   15.65              107979
   15.67              108713
   15.69              109195
   15.71              109417
   15.73              109377
   15.75              109075
   15.77              108519
   15.79              107720
   15.81              106692
   15.83              105454
   15.85              104028
   15.87              102434
   15.89              100697
   15.91             98841.2
   15.93             96889.4
   15.95             94864.6
   15.97             92788.2
   15.99               90680
   16.01             88558.1
   16.03             86438.8
   16.05             84336.3
   16.07               82263
   16.09             80229.1
   16.11             78243.4
   16.13             76312.8
   16.15             74442.8
   16.17             72637.3
   16.19               70899
   16.21             69229.7
   16.23               67630
   16.25             66099.9
   16.27             64638.6
   16.29               63245
   16.31             61917.2
   16.33             60653.6
   16.35             59451.9
   16.37             58310.1
   16.39             57226.1
   16.41             56197.8
   16.43             55223.4
   16.45             54301.1
   16.47             53429.6
   16.49             52607.3
   16.51             51833.4
   16.53             51106.9
   16.55             50427.3
   16.57             49793.9
   16.59             49206.6
   16.61               48665
   16.63             48169.3
   16.65             47719.3
   16.67             47315.2
   16.69             46957.1
   16.71             46645.2
   16.73             46379.6
   16.75             46160.6
   16.77             45988.2
   16.79             45862.7
   16.81               45784
   16.83             45752.3
   16.85             45767.5
   16.87             45829.4
   16.89             45937.8
   16.91             46092.3
   16.93             46292.1
   16.95             46536.7
   16.97             46824.7
   16.99             47154.9
   17.01             47525.6
   17.03             47934.5
   17.05             48379.1
   17.07             48856.4
   17.09             49362.7
   17.11             49893.9
   17.13             50445.2
   17.15             51011.3
   17.17             51586.4
   17.19             52164.2
   17.21             52738.1
   17.23             53301.1
   17.25             53846.1
   17.27             54366.1
   17.29             54854.5
   17.31             55304.8
   17.33             55711.5
   17.35             56069.5
   17.37               56375
   17.39             56624.9
   17.41             56817.2
   17.43             56951.1
   17.45             57026.7
   17.47             57044.9
   17.49             57007.5
   17.51               56917
   17.53             56776.3
   17.55             56588.8
   17.57             56358.2
   17.59             56088.3
   17.61             55783.1
   17.63             55446.6
   17.65             55082.9
   17.67             54696.1
   17.69             54290.1
   17.71             53868.9
   17.73             53436.5
   17.75             52996.7
   17.77             52553.5
   17.79             52110.7
   17.81               51672
   17.83             51241.3
   17.85             50822.3
   17.87             50418.7
   17.89             50033.8
   17.91               49671
   17.93             49333.5
   17.95             49023.9
   17.97             48744.6
   17.99             48497.9
   18.01             48285.2
   18.03             48107.6
   18.05             47965.7
   18.07             47859.5
   18.09             47788.4
   18.11             47751.2
   18.13             47746.2
   18.15               47771
   18.17             47822.7
   18.19             47897.8
   18.21             47992.7
   18.23               48103
   18.25             48224.5
   18.27             48352.4
   18.29             48482.5
   18.31             48610.3
   18.33             48731.8
   18.35             48843.7
   18.37               48943
   18.39             49027.5
   18.41             49096.1
   18.43               49148
   18.45             49183.7
   18.47             49204.2
   18.49             49211.1
   18.51             49206.7
   18.53             49193.5
   18.55             49174.2
   18.57             49151.5
   18.59             49128.2
   18.61             49106.5
   18.63             49088.5
   18.65             49075.7
   18.67             49069.2
   18.69             49069.8
   18.71             49077.6
   18.73             49092.8
   18.75             49114.9
   18.77             49143.8
   18.79             49179.2
   18.81             49220.9
   18.83             49269.2
   18.85             49324.6
   18.87               49388
   18.89             49460.9
   18.91             49545.1
   18.93             49642.8
   18.95             49756.5
   18.97             49888.6
   18.99               50042
   19.01               50219
   19.03             50421.9
   19.05             50652.4
   19.07             50911.6
   19.09             51199.9
   19.11             51516.8
   19.13             51860.9
   19.15             52229.6
   19.17             52619.2
   19.19             53024.8
   19.21             53440.3
   19.23             53858.3
   19.25             54270.6
   19.27             54667.6
   19.29             55039.2
   19.31             55374.6
   19.33             55662.6
   19.35             55892.2
   19.37             56052.6
   19.39             56133.9
   19.41             56127.2
   19.43             56025.4
   19.45               55823
   19.47             55516.5
   19.49             55104.9
   19.51             54589.1
   19.53             53972.3
   19.55             53259.7
   19.57             52458.3
   19.59             51576.4
   19.61             50623.5
   19.63             49609.7
   19.65             48545.5
   19.67             47441.3
   19.69             46307.4
   19.71             45153.4
   19.73             43988.4
   19.75             42820.6
   19.77             41657.3
   19.79             40504.9
   19.81             39368.8
   19.83             38253.7
   19.85             37163.3
   19.87             36100.6
   19.89             35067.9
   19.91             34066.9
   19.93             33098.8
   19.95             32164.2
   19.97             31263.4
   19.99             30396.5
   20.01               29563
